ElectroAR 57-60 rev tp 4 6 04 8:49 am Page 58 58 Electrocomponents plc Notice of Annual General Meeting Notice is hereby given that the Annual General Meeting of i in connection with or the subject of an offer or invitation, open for Electrocomponents plc will be held at the Companys premises, The acceptance for a period fixed by the Directors, to holders of ordinary International Management Centre, 5000 Oxford Business Park South, shares and such other equity securities of the Company as the Directors Oxford OX4 2BH on Friday 16 July 2004 at 12 noon.
may determine on the register on a fixed record date in proportion as The business of the meeting will be: nearly as may be to their respective holdings of such securities or in accordance with the rights attached thereto including equity securities Ordinary business which, in connection with such offer or invitation, are the subject of such Report and Accounts exclusions or other arrangements as the Directors may deem necessary or 1To receive the accounts and the reports of the Directors and the expedient to deal with fractional entitlements that would otherwise arise or Auditors for the year ended 31 March 2004. with legal or practical problems under the laws of, or the requirements of Directors Remuneration Report any recognised regulatory body or any stock exchange in, any territory or 2To approve the Directors Remuneration Report for the year ended otherwise howsoever : 31 March 2004. ii pursuant to the terms of any share scheme for employees Declaration of dividend approved by the members in general meeting and any shares acquired or 3To declare a final dividend on the ordinary shares.
held by the Company in Treasury may be transferred in satisfaction of the Retiring Directors exercise of any options under any of the Companys employee share 4To re-elect Dr L Atkinson as a Director.
schemes: and 5To re-elect Mr R B Butler as a Director.
iii otherwise than pursuant to sub-paragraphs i and ii above up 6To re-elect Mr I Mason as a Director.
to an aggregate nominal amount of 2,176,233.20, and shall expire on Auditors appointment and remuneration 15 July 2009, except that the Company may before such expiry make 7To re-appoint KPMG Audit Plc as Auditors of the Company and to offers or agreements which would or might require equity securities to be authorise the Directors to agree their remuneration.
allotted after such expiry and notwithstanding such expiry the Directors may allot equity securities in pursuance of such offers or agreements: Special business and To consider and, if thought fit, pass the following resolutions of which b all authorities previously conferred under section 95 of the Act be resolutions 8 and 9 will be proposed as Ordinary Resolutions and and they are hereby revoked, provided that such revocation shall not have resolutions 10 and 11 will be proposed as Special Resolutions: retrospective effect.
Renewal of Directors authority for the purchase by the Company of its Ordinary resolutions own shares Increase in the limit on Directors fees 11 That the Company is hereby generally and unconditionally authorised 8That with effect from the conclusion of this meeting the maximum to make market purchases within the meaning of Section 163 3 of the amount of fees payable to Directors pursuant to Article 102.1 of the Companies Act 1985 of ordinary shares of 10p each in the Company Companys Articles of Association be increased from 450,000 to ordinary shares provided that: 600,000. a the maximum number of ordinary shares hereby authorised to be Renewal of Directors authority to allot shares purchased is 43,524,665: 9That the Directors be and they are hereby generally and b the minimum price which may be paid for ordinary shares is 10p unconditionally authorised in accordance with Section 80 of the per ordinary share: Companies Act 1985 and in substitution for any existing power to allot c the maximum price which may be paid for ordinary shares is an relevant securities within the meaning of the said Section 80 up to an amount equal to 105% of the average of the middle market quotations for aggregate nominal amount of 4,569,923.90 during the period an ordinary share taken from the London Stock Exchange Daily Official List commencing on the date of the passing of this Resolution and expiring on for the five business days immediately preceding the date of purchase: 15 July 2009 but so that this authority shall allow the Company to make d the authority hereby conferred shall expire at the conclusion of the before the expiry of this authority offers or agreements which would or next Annual General Meeting of the Company, unless such authority is might require relevant securities to be allotted after such expiry and renewed prior to such a time: and notwithstanding such expiry the Directors may allot relevant securities e the Company may make a contract to purchase ordinary shares in pursuance of such offers or agreements.
under the authority hereby conferred prior to the expiry of such authority which will or may be executed wholly or partly after the expiry of such Special resolutions authority, and may make a purchase of ordinary shares in pursuance of Renewal of Directors authority to disapply pre-emption rights such contract.
10 That subject to the passing of Resolution 9 set out in the Notice of this Meeting: By Order of the Board a the Directors be and they are hereby empowered pursuant to Section 95 of the Companies Act 1985 the Act to allot equity securities within the meaning of Section 94 of the Act pursuant to the authority Carmelina Carfora given by the said Resolution 9 and to transfer equity securities within the Company Secretary meaning of Section 94 of the Act which are held by the Company in 26 May 2004 Treasury, as if Section 89 1 of the Act did not apply to any such allotment Registered Office: International Management Centre, or transfer, provided that this power shall be limited to the allotment or 5000 Oxford Business Park South, Oxford, OX4 2BH transfer of equity securities: Registered Number: 647788 ElectroAR 57-60 rev tp 4 6 04 8:49 am Page 59 Electrocomponents plc 59 Notes: authenticated in accordance with CRESTCos specifications and must i A member entitled to attend and vote at the Meeting is entitled to contain the information required for such instructions, as described in appoint one or more proxies to attend and on a poll vote instead of him.
The message must be transmitted so as to be received Aproxy need not be a member of the Company.
Appointment of a proxy will by the Companys registrar ID 7RA01 by not later than 12 noon on not preclude a member from attending or voting at the meeting if he she Wednesday 14 July 2004.
For this purpose, the time of receipt will be subsequently wishes to do so.
taken to be the time as determined by the timestamp generated by ii Pursuant to Regulation 41 of the Uncertificated Securities the CREST system from which the issuers agent is able to retrieve the Regulations 2001, the Company has specified that only those shareholders message.
CREST members should note that normal system timings registered in the Register of Members of the Company as at 6.00 pm on and limitations will apply for the input of CREST Proxy Instructions.
14 July 2004 will be entitled to attend or vote at the Meeting in respect of CREST Personal Members or other CREST sponsored members, and the number of shares registered in their name at that time.
Changes to those CREST members who have appointed voting service provider s, entries on the relevant Register of Members after 6.00 pm on 14 July 2004 should contact their CREST sponsor or voting service provider s for will be disregarded in determining the rights of any person to attend or assistance with appointing proxies via CREST.
For further information on vote at the Meeting.
CREST procedures, limitations and systems timings, please refer to the iii A form of proxy is enclosed.
To be effective, a proxy form and the CREST manual.
authority if any under which it is signed or a notarially certified copy The Company may treat as invalid a CREST Proxy Instruction in the of such authority must be deposited at the offices of the Companys circumstances set out in Regulation 35 5 a of the Uncertificated registrars, Lloyds TSB Registrars, The Causeway, Worthing, West Sussex Securities Regulations 2001.
BN99 6DA by not later than 12 noon on Wednesday 14 July 2004. v The Register of Directors Interests and copies of all Contracts of iv CREST members including CREST Personal Members who wish Service of the Directors are available for inspection during business hours to appoint one or more proxies by using the CREST electronic proxy at the registered office of the Company and will be available for inspection appointment service may do so by having an appropriate CREST message at the place of the Meeting from half an hour before the time of the transmitted.
Meeting until the conclusion of the Meeting.
For a proxy appointment made by means of CREST to be valid, the vi Biographical details of the Directors who are proposed for re-election appropriate CREST message a CREST Proxy Instruction must be properly at the Annual General Meeting are set out on pages 22 and 23.
