Five year record Year ended 31 March Restated 2011 2010 2009 2008 2007 Revenue 1,182.2 972.6 974.6 924.8 877.5 Operating profit 119.8 80.8 103.5 102.7 93.1 Pension changes reorganisation income costs 1.6 9.9 1.0 0.8 Headline operating profit 119.8 79.2 93.6 103.7 92.3 Net interest payable 5.8 4.8 7.0 7.3 5.9 Profit before tax 114.0 76.0 96.5 95.4 87.2 Pension changes reorganisation income costs 1.6 9.9 1.0 0.8 Headline profit before tax 114.0 74.4 86.6 96.4 86.4 Tax 35.8 23.4 30.3 31.5 29.6 Profit for the year attributable to the equity shareholders 78.2 52.6 66.2 63.9 57.6 Non-current assets 333.0 349.3 370.5 321.5 327.1 Current assets 456.1 372.7 350.9 363.8 344.4 Current liabilities 224.3 190.6 160.1 168.3 226.4 Non-current liabilities 229.5 228.3 258.5 235.2 145.8 Net assets 335.3 303.1 302.8 281.8 299.3 Number of shares in issue: Weighted average excluding own shares held 435.3 435.1 435.0 435.0 434.9 Year end 435.7 435.4 435.4 435.4 435.3 Dividend per share pence proposed during the period 11.5 11.0 11.0 18.4 18.4 Average number of employees 5,784 5,556 6,025 6,090 5,451 Share price at 31 March pence 267.3 220.0 125.5 182.0 289.5 100 Electrocomponents plc | Annual Report and Accounts 2011 Additional information for Electrocomponents plc shareholders Set out below is a summary of certain provisions of the Companys Variation of rights current Articles of Association the Articles and applicable English Subject to the relevant law, the Articles specify that rights attached law concerning companies the Companies Act 2006, the Companies to any class of shares may be varied with the written consent of the Act.
This is a summary only and the relevant provisions of the Articles holders of not less than three-fourths in nominal value of the issued or the Companies Act should be consulted if further information shares of that class, or with the sanction of an special resolution is required.
passed at a separate general meeting of the holders of those shares.
Dividends and distributions Transfer of shares Subject to the provisions of the Companies Act, the Company All transfers of shares may be effected by transfer in writing in may by ordinary resolution from time to time declare dividends not any usual or common form or in any other form acceptable to the exceeding the amount recommended by the Board.
The instrument of transfer shall be signed by or on behalf pay interim dividends whenever the financial position of the Company, of the transferor and except in the case of fully-paid shares by or on in the opinion of the Board, justifies such payment.
Transfers of shares which are in uncertificated form are effected by means of the CREST system.
The Board may withhold payment of all or any part of any dividends or other monies payable in respect of the Companys shares from a The Directors may, in the case of shares in certificated form, in person with a 0.25 per cent interest as defined in the Articles if such their absolute discretion and without assigning any reason, refuse to a person has been served with a notice after failure to provide the register any transfer of shares not being fully paid shares provided Company with information concerning interest in those shares required that such discretion may not be exercised in such a way as to prevent to be provided under the Companies Act.
dealings in the shares of that class from taking place on an open and proper basis.
Voting Rights Subject to any special rights or restrictions attaching to any class of The Directors may also refuse to register an allotment or transfer of shares, at a general meeting, every member present in person and shares whether fully-paid or not in favour of more than four persons every duly appointed proxy has, upon a show of hands, one vote and jointly.
If the Directors refuse to register an allotment or transfer they on a poll every member who is present in person or by proxy has one shall within two months after the date on which the letter of allotment vote for each share.
In the case of joint holders of a share the vote of or transfer was lodged with the Company send to the allottee or the senior who tenders a vote whether in person or by proxy shall be transferee a notice of the refusal.
accepted to the exclusion of the votes of the other joint holders and Subject to statutes and applicable CREST rules, the Directors may for this purpose seniority shall be determined by the order in which determine that any class of shares may be held in uncertificated the names stand in the Register of Members in respect of the shares.
form and that title to such shares may be transferred by means Restrictions on voting of the CREST system or that shares of any class should cease No member shall be entitled to vote either in person or by proxy at any to be so held and transferred.
general meeting or class meeting in respect of any shares held by him A shareholder does not need to obtain the approval of the Company, if any call or other sum then payable by him in respect of that share or of other shareholders of shares in the Company, for a transfer of remains unpaid.
In addition no member shall be entitled to vote if he shares to take place.
has been served with a notice after failure to provide the Company with information concerning interests in those shares required to be provided under the Companies Act.
Deadlines for exercising voting rights Voting rights may be exercised in person, by proxy, or in relation to corporate members, by corporate representative.
The Articles provide a deadline for submission of proxy forms of not than less than 48 hours before the time appointed for the holding of the meeting or adjourned meeting.
Electrocomponents plc | Annual Report and Accounts 2011 101 Additional information for Electrocomponents plc shareholders continued Appointment and replacement of Directors Directors shall be no less than three and no more than twelve in Registered office, advisers and financial calendar number.
A Director is not required to hold any shares of the Company by way of qualification.
The Company may by ordinary resolution increase or reduce the maximum or minimum number of Directors.
Any Director who was elected or last re-elected a Director at or before the Annual General Meeting held in the third calendar year before the Registered Office Financial Calendar current calendar year shall retire by rotation.
In addition, each Director, Electrocomponents plc Announcement of results other than the Chairman and any director holding an executive office International Management Centre The results of the Group are normally published at the following times.
shall retire at each Annual General Meeting following the ninth 8050 Oxford Business Park North anniversary of the date on which he was elected.
A retiring Director Half-Yearly results for the six months to 30 September in Oxford OX4 2HW is eligible for re-election.
United Kingdom Tel: 44 0 1865 204000 The Board may appoint any person to be a Director so long as the Preliminary announcement for the year to 31 March in late Fax: 44 0 1865 207400 total number of Directors does not exceed the limit prescribed in the May early June.
Any such Director shall hold office only until the next Annual Annual Report and Accounts for the year to 31 March in mid June.
General Meeting and shall then be eligible for re-election.
Shareholder Services Dividend payments Powers of the Directors Shareview Current policy is to make dividend payments at the following times: Subject to the Articles, the Companies Act and any directions given A website, www.
co. uk, has been developed by by special resolution, the business of the Company will be managed Interim dividend in January.
Equiniti, the Companys registrar, enabling shareholders to by the Board who may exercise all the powers of the Company.
The website provides information useful to the management of investments together with an The Board may exercise all the powers of the Company to borrow 2011 final dividend: extensive schedule of frequently asked questions.
money and to mortgage or charge any of its undertaking, property and Ex-dividend date 22 June uncalled capital and to issue debentures and other securities, whether Record date 24 June In order to view shareholdings the shareholder reference number outright or as collateral security for any debt, liability or obligation of Annual General Meeting 15 July is required which can be found at the top of share certificates or the Company or of any third party.
Dividend paid 22 July on the last dividend tax voucher.
Significant Agreements: Change of control Advisers Warning to shareholders All of the Companys share plans contain provisions relating to a Auditors change of control.
Outstanding awards and options would normally We are aware that some shareholders have received unsolicited phone KPMG Audit Plc vest and become exercisable on a change of control, subject to the calls or correspondence concerning investment matters.
These are 15 Canada Square satisfaction of any performance conditions at that time.
typically from overseas based brokers who target UK shareholders, London E14 5GL offering to sell them what often turn out to be worthless or high risk Amendment of Articles of Association Merchant Bankers shares in US or UK investments.
Such operations are commonly Any amendments to the Articles of the Company may be made in Citigroup known as boiler rooms.
These brokers can be very persistent and accordance with the provisions of the Companies Act by way of Citigroup Centre extremely persuasive and a 2006 survey by the Financial Services special resolution.
33 Canada Square Authority FSA has reported that the average amount lost by each Canary Wharf investor is around 20,000.
London E14 5LB Shareholders are advised to be very wary of any unsolicited advice, Registrars and transfer office offers to buy shares at a discount or offers of free company reports.
Equiniti Limited If you receive any unsolicited investment advice: Aspect House Spencer Road Make sure you get the correct name of the person and organisation.
Lancing Check that they are properly authorised by the FSA before getting West Sussex BN99 6DA involved by visiting www.
Solicitors Report the matter to the FSA.
For UK callers telephone Linklaters LLP 0300 500 5000 and for overseas callers telephone One Silk Street 44 20 7066 1000 or visit www.
London EC2Y 8HQ If the calls persist, hang up.
Joint Stockbrokers Collins Stewart If you deal with an unauthorised firm, you will not be eligible 88 Wood Street to receive payment under the Financial Services Compensation London Scheme.
The FSA can be contacted by completing an online form EC2V 7QR at www.
uk pages doing regulated law alerts overseas.
UBS 1 Finsbury Avenue London EC2M 2PP 102 Electrocomponents plc | Annual Report and Accounts 2011
