ElectroAR_NNP 57-60_CD rev_NN tp_NN 4_CD 6_CD 04_CD 8:49_CD am_VBP Page_NNP 58_CD 58_CD Electrocomponents_NNS plc_VBP Notice_NNP of_IN Annual_JJ General_NNP Meeting_VBG Notice_NNP is_VBZ hereby_JJ given_VBN that_IN the_DT Annual_JJ General_NNP Meeting_VBG of_IN i_FW in_IN connection_NN with_IN or_CC the_DT subject_NN of_IN an_DT offer_NN or_CC invitation_NN ,_, open_JJ for_IN Electrocomponents_NNP plc_NN will_MD be_VB held_VBN at_IN the_DT Companys_NNP premises_NNS ,_, The_DT acceptance_NN for_IN a_DT period_NN fixed_VBN by_IN the_DT Directors_NNS ,_, to_TO holders_NNS of_IN ordinary_JJ International_NNP Management_NNP Centre_NNP ,_, 5000_CD Oxford_NNP Business_NNP Park_NNP South_NNP ,_, shares_NNS and_CC such_JJ other_JJ equity_NN securities_NNS of_IN the_DT Company_NN as_IN the_DT Directors_NNS Oxford_NNP OX4_NNP 2BH_NNP on_IN Friday_NNP 16_CD July_NNP 2004_CD at_IN 12_CD noon_NN ._.
may_MD determine_VB on_IN the_DT register_NN on_IN a_DT fixed_VBN record_NN date_NN in_IN proportion_NN as_IN The_DT business_NN of_IN the_DT meeting_NN will_MD be_VB :_: nearly_RB as_RB may_MD be_VB to_TO their_PRP$ respective_JJ holdings_NNS of_IN such_JJ securities_NNS or_CC in_IN accordance_NN with_IN the_DT rights_NNS attached_VBN thereto_RB including_VBG equity_NN securities_NNS Ordinary_JJ business_NN which_WDT ,_, in_IN connection_NN with_IN such_JJ offer_NN or_CC invitation_NN ,_, are_VBP the_DT subject_NN of_IN such_JJ Report_NNP and_CC Accounts_NNPS exclusions_NNS or_CC other_JJ arrangements_NNS as_IN the_DT Directors_NNS may_MD deem_VB necessary_JJ or_CC 1To_JJ receive_VBP the_DT accounts_NNS and_CC the_DT reports_NNS of_IN the_DT Directors_NNS and_CC the_DT expedient_NN to_TO deal_VB with_IN fractional_JJ entitlements_NNS that_WDT would_MD otherwise_RB arise_VB or_CC Auditors_NNS for_IN the_DT year_NN ended_VBD 31_CD March_NNP 2004_CD ._.
with_IN legal_JJ or_CC practical_JJ problems_NNS under_IN the_DT laws_NNS of_IN ,_, or_CC the_DT requirements_NNS of_IN Directors_NNS Remuneration_NNP Report_NNP any_DT recognized_VBN regulatory_JJ body_NN or_CC any_DT stock_NN exchange_NN in_IN ,_, any_DT territory_NN or_CC 2To_JJ approve_VBP the_DT Directors_NNS Remuneration_NNP Report_NNP for_IN the_DT year_NN ended_VBD otherwise_RB howsoever_NN :_: 31_CD March_NNP 2004_CD ._.
ii_FW pursuant_JJ to_TO the_DT terms_NNS of_IN any_DT share_NN scheme_NN for_IN employees_NNS Declaration_NNP of_IN dividend_NN approved_VBN by_IN the_DT members_NNS in_IN general_JJ meeting_NN and_CC any_DT shares_NNS acquired_VBD or_CC 3To_JJ declare_VBP a_DT final_JJ dividend_NN on_IN the_DT ordinary_JJ shares_NNS ._.
held_VBN by_IN the_DT Company_NN in_IN Treasury_NNP may_MD be_VB transferred_VBN in_IN satisfaction_NN of_IN the_DT Retiring_NNP Directors_NNS exercise_NN of_IN any_DT options_NNS under_IN any_DT of_IN the_DT Companys_NNPS employee_NN share_NN 4To_JJ re-elect_NN Dr_NNP L_NNP Atkinson_NNP as_IN a_DT Director_NNP ._.
schemes_NNS :_: and_CC 5To_JJ re-elect_NN Mr_NNP R_NNP B_NNP Butler_NNP as_IN a_DT Director_NNP ._.
iii_FW otherwise_RB than_IN pursuant_JJ to_TO sub-paragraphs_NNS i_FW and_CC ii_FW above_IN up_RB 6To_JJ re-elect_NN Mr_NNP I_NNP Mason_NNP as_IN a_DT Director_NNP ._.
to_TO an_DT aggregate_JJ nominal_JJ amount_NN of_IN 2,176,233.20_CD ,_, and_CC shall_MD expire_VB on_IN Auditors_NNS appointment_NN and_CC remuneration_NN 15_CD July_NNP 2009_CD ,_, except_IN that_IN the_DT Company_NN may_MD before_RB such_JJ expiry_NN make_VBP 7To_JJ re-appoint_NN KPMG_NNP Audit_NNP Plc_NNP as_IN Auditors_NNS of_IN the_DT Company_NN and_CC to_TO offers_NNS or_CC agreements_NNS which_WDT would_MD or_CC might_MD require_VB equity_NN securities_NNS to_TO be_VB authorise_JJ the_DT Directors_NNS to_TO agree_VB their_PRP$ remuneration_NN ._.
allotted_VBN after_IN such_JJ expiry_NN and_CC notwithstanding_IN such_JJ expiry_NN the_DT Directors_NNS may_MD allot_VB equity_NN securities_NNS in_IN pursuance_NN of_IN such_JJ offers_NNS or_CC agreements_NNS :_: Special_JJ business_NN and_CC To_TO consider_VB and_CC ,_, if_IN thought_VBN fit_NN ,_, pass_VBP the_DT following_VBG resolutions_NNS of_IN which_WDT b_NN all_DT authorities_NNS previously_RB conferred_VBN under_IN section_NN 95_CD of_IN the_DT Act_NNP be_VB resolutions_NNS 8_CD and_CC 9_CD will_MD be_VB proposed_VBN as_IN Ordinary_NNP Resolutions_NNPS and_CC and_CC they_PRP are_VBP hereby_JJ revoked_VBN ,_, provided_VBN that_IN such_JJ revocation_NN shall_MD not_RB have_VB resolutions_NNS 10_CD and_CC 11_CD will_MD be_VB proposed_VBN as_IN Special_JJ Resolutions_NNS :_: retrospective_JJ effect_NN ._.
Renewal_NN of_IN Directors_NNS authority_NN for_IN the_DT purchase_NN by_IN the_DT Company_NN of_IN its_PRP$ Ordinary_NNP resolutions_NNS own_JJ shares_NNS Increase_VBP in_IN the_DT limit_NN on_IN Directors_NNS fees_NNS 11_CD That_IN the_DT Company_NN is_VBZ hereby_JJ generally_RB and_CC unconditionally_RB authorised_JJ 8That_NN with_IN effect_NN from_IN the_DT conclusion_NN of_IN this_DT meeting_NN the_DT maximum_NN to_TO make_VB market_NN purchases_NNS within_IN the_DT meaning_NN of_IN Section_NN 163_CD 3_CD of_IN the_DT amount_NN of_IN fees_NNS payable_JJ to_TO Directors_NNS pursuant_JJ to_TO Article_NNP 102.1_CD of_IN the_DT Companies_NNS Act_NNP 1985_CD of_IN ordinary_JJ shares_NNS of_IN 10p_JJ each_DT in_IN the_DT Company_NN Companys_NNP Articles_NNPS of_IN Association_NNP be_VB increased_VBN from_IN 450,000_CD to_TO ordinary_JJ shares_NNS provided_VBD that_DT :_: 600,000_CD ._.
a_DT the_DT maximum_JJ number_NN of_IN ordinary_JJ shares_NNS hereby_VBP authorised_VBN to_TO be_VB Renewal_NN of_IN Directors_NNS authority_NN to_TO allot_VB shares_NNS purchased_VBN is_VBZ 43,524,665_CD :_: 9That_VB the_DT Directors_NNS be_VB and_CC they_PRP are_VBP hereby_JJ generally_RB and_CC b_NN the_DT minimum_JJ price_NN which_WDT may_MD be_VB paid_VBN for_IN ordinary_JJ shares_NNS is_VBZ 10p_JJ unconditionally_RB authorised_VBN in_IN accordance_NN with_IN Section_NN 80_CD of_IN the_DT per_FW ordinary_JJ share_NN :_: Companies_NNS Act_NNP 1985_CD and_CC in_IN substitution_NN for_IN any_DT existing_VBG power_NN to_TO allot_VB c_NN the_DT maximum_NN price_NN which_WDT may_MD be_VB paid_VBN for_IN ordinary_JJ shares_NNS is_VBZ an_DT relevant_JJ securities_NNS within_IN the_DT meaning_NN of_IN the_DT said_VBD Section_NNP 80_CD up_IN to_TO an_DT amount_NN equal_JJ to_TO 105_CD %_NN of_IN the_DT average_NN of_IN the_DT middle_JJ market_NN quotations_NNS for_IN aggregate_JJ nominal_JJ amount_NN of_IN 4,569,923.90_CD during_IN the_DT period_NN an_DT ordinary_JJ share_NN taken_VBN from_IN the_DT London_NNP Stock_NNP Exchange_NNP Daily_NNP Official_NNP List_NN commencing_VBG on_IN the_DT date_NN of_IN the_DT passing_NN of_IN this_DT Resolution_NN and_CC expiring_VBG on_IN for_IN the_DT five_CD business_NN days_NNS immediately_RB preceding_VBG the_DT date_NN of_IN purchase_NN :_: 15_CD July_NNP 2009_CD but_CC so_RB that_IN this_DT authority_NN shall_MD allow_VB the_DT Company_NN to_TO make_VB d_SYM the_DT authority_NN hereby_NN conferred_VBD shall_MD expire_VB at_IN the_DT conclusion_NN of_IN the_DT before_IN the_DT expiry_NN of_IN this_DT authority_NN offers_VBZ or_CC agreements_NNS which_WDT would_MD or_CC next_JJ Annual_JJ General_NNP Meeting_VBG of_IN the_DT Company_NN ,_, unless_IN such_JJ authority_NN is_VBZ might_MD require_VB relevant_JJ securities_NNS to_TO be_VB allotted_VBN after_IN such_JJ expiry_NN and_CC renewed_VBN prior_RB to_TO such_PDT a_DT time_NN :_: and_CC notwithstanding_IN such_JJ expiry_NN the_DT Directors_NNS may_MD allot_VB relevant_JJ securities_NNS e_LS the_DT Company_NN may_MD make_VB a_DT contract_NN to_TO purchase_VB ordinary_JJ shares_NNS in_IN pursuance_NN of_IN such_JJ offers_NNS or_CC agreements_NNS ._.
under_IN the_DT authority_NN hereby_NN conferred_VBD prior_RB to_TO the_DT expiry_NN of_IN such_JJ authority_NN which_WDT will_MD or_CC may_MD be_VB executed_VBN wholly_RB or_CC partly_RB after_IN the_DT expiry_NN of_IN such_JJ Special_JJ resolutions_NNS authority_NN ,_, and_CC may_MD make_VB a_DT purchase_NN of_IN ordinary_JJ shares_NNS in_IN pursuance_NN of_IN Renewal_NNP of_IN Directors_NNS authority_NN to_TO disapply_VB pre-emption_JJ rights_NNS such_JJ contract_NN ._.
10_CD That_DT subject_NN to_TO the_DT passing_NN of_IN Resolution_NNP 9_CD set_VBN out_RP in_IN the_DT Notice_NNP of_IN this_DT Meeting_VBG :_: By_IN Order_NN of_IN the_DT Board_NNP a_DT the_DT Directors_NNS be_VB and_CC they_PRP are_VBP hereby_JJ empowered_VBN pursuant_JJ to_TO Section_NNP 95_CD of_IN the_DT Companies_NNS Act_NNP 1985_CD the_DT Act_NN to_TO allot_VB equity_NN securities_NNS within_IN the_DT meaning_NN of_IN Section_NN 94_CD of_IN the_DT Act_NNP pursuant_JJ to_TO the_DT authority_NN Carmelina_NNP Carfora_NNP given_VBN by_IN the_DT said_VBD Resolution_NNP 9_CD and_CC to_TO transfer_VB equity_NN securities_NNS within_IN the_DT Company_NNP Secretary_NNP meaning_NN of_IN Section_NN 94_CD of_IN the_DT Act_NNP which_WDT are_VBP held_VBN by_IN the_DT Company_NN in_IN 26_CD May_NNP 2004_CD Treasury_NNP ,_, as_IN if_IN Section_NN 89_CD 1_CD of_IN the_DT Act_NNP did_VBD not_RB apply_VB to_TO any_DT such_JJ allotment_NN Registered_NNP Office_NNP :_: International_NNP Management_NNP Centre_NNP ,_, or_CC transfer_NN ,_, provided_VBD that_IN this_DT power_NN shall_MD be_VB limited_VBN to_TO the_DT allotment_NN or_CC 5000_CD Oxford_NNP Business_NNP Park_NNP South_NNP ,_, Oxford_NNP ,_, OX4_NNP 2BH_NNP transfer_NN of_IN equity_NN securities_NNS :_: Registered_NNP Number_NNP :_: 647788_CD ElectroAR_NNP 57-60_CD rev_NN tp_NN 4_CD 6_CD 04_CD 8:49_CD am_VBP Page_NNP 59_CD Electrocomponents_NNP plc_NN 59_CD Notes_NNS :_: authenticated_VBN in_IN accordance_NN with_IN CRESTCos_NNS specifications_NNS and_CC must_MD i_FW A_DT member_NN entitled_VBN to_TO attend_VB and_CC vote_VB at_IN the_DT Meeting_VBG is_VBZ entitled_VBN to_TO contain_VB the_DT information_NN required_VBN for_IN such_JJ instructions_NNS ,_, as_IN described_VBN in_IN appoint_VB one_CD or_CC more_JJR proxies_NNS to_TO attend_VB and_CC on_IN a_DT poll_NN vote_NN instead_RB of_IN him_PRP ._.
The_DT message_NN must_MD be_VB transmitted_VBN so_RB as_IN to_TO be_VB received_VBN Aproxy_NNP need_MD not_RB be_VB a_DT member_NN of_IN the_DT Company_NN ._.
Appointment_NN of_IN a_DT proxy_NN will_MD by_IN the_DT Companys_NNP registrar_NN ID_NNP 7RA01_NNP by_IN not_RB later_RB than_IN 12_CD noon_NN on_IN not_RB preclude_VB a_DT member_NN from_IN attending_VBG or_CC voting_VBG at_IN the_DT meeting_NN if_IN he_PRP she_PRP Wednesday_NNP 14_CD July_NNP 2004_CD ._.
For_IN this_DT purpose_NN ,_, the_DT time_NN of_IN receipt_NN will_MD be_VB subsequently_RB wishes_VBZ to_TO do_VB so_RB ._.
taken_VBN to_TO be_VB the_DT time_NN as_IN determined_VBN by_IN the_DT timestamp_NN generated_VBN by_IN ii_FW Pursuant_NN to_TO Regulation_NNP 41_CD of_IN the_DT Uncertificated_NNP Securities_NNPS the_DT CREST_NN system_NN from_IN which_WDT the_DT issuers_NNS agent_NN is_VBZ able_JJ to_TO retrieve_VB the_DT Regulations_NNPS 2001_CD ,_, the_DT Company_NN has_VBZ specified_VBN that_IN only_RB those_DT shareholders_NNS message_NN ._.
CREST_NN members_NNS should_MD note_VB that_IN normal_JJ system_NN timings_NNS registered_VBN in_IN the_DT Register_NNP of_IN Members_NNP of_IN the_DT Company_NN as_IN at_IN 6.00_CD pm_NN on_IN and_CC limitations_NNS will_MD apply_VB for_IN the_DT input_NN of_IN CREST_NNP Proxy_NNP Instructions_NNPS ._.
14_CD July_NNP 2004_CD will_MD be_VB entitled_VBN to_TO attend_VB or_CC vote_VB at_IN the_DT Meeting_VBG in_IN respect_NN of_IN CREST_NNP Personal_NNP Members_NNP or_CC other_JJ CREST_NNP sponsored_VBD members_NNS ,_, and_CC the_DT number_NN of_IN shares_NNS registered_VBN in_IN their_PRP$ name_NN at_IN that_DT time_NN ._.
Changes_NNS to_TO those_DT CREST_NNP members_NNS who_WP have_VBP appointed_VBN voting_VBG service_NN provider_NN s_VBZ ,_, entries_NNS on_IN the_DT relevant_JJ Register_NNP of_IN Members_NNP after_IN 6.00_CD pm_NN on_IN 14_CD July_NNP 2004_CD should_MD contact_VB their_PRP$ CREST_NN sponsor_NN or_CC voting_NN service_NN provider_NN s_VBZ for_IN will_MD be_VB disregarded_VBN in_IN determining_VBG the_DT rights_NNS of_IN any_DT person_NN to_TO attend_VB or_CC assistance_NN with_IN appointing_VBG proxies_NNS via_IN CREST_NNP ._.
For_IN further_JJ information_NN on_IN vote_NN at_IN the_DT Meeting_VBG ._.
CREST_NN procedures_NNS ,_, limitations_NNS and_CC systems_NNS timings_NNS ,_, please_VB refer_VBP to_TO the_DT iii_FW A_DT form_NN of_IN proxy_NN is_VBZ enclosed_VBN ._.
To_TO be_VB effective_JJ ,_, a_DT proxy_NN form_NN and_CC the_DT CREST_NNP manual_NN ._.
authority_NN if_IN any_DT under_IN which_WDT it_PRP is_VBZ signed_VBN or_CC a_DT notarially_RB certified_VBN copy_NN The_DT Company_NN may_MD treat_VB as_IN invalid_JJ a_DT CREST_NNP Proxy_NNP Instruction_NNP in_IN the_DT of_IN such_JJ authority_NN must_MD be_VB deposited_VBN at_IN the_DT offices_NNS of_IN the_DT Companys_NNPS circumstances_NNS set_VBN out_RP in_IN Regulation_NNP 35_CD 5_CD a_DT of_IN the_DT Uncertificated_NNP registrars_NNS ,_, Lloyds_NNP TSB_NNP Registrars_NNPS ,_, The_DT Causeway_NNP ,_, Worthing_NNP ,_, West_NNP Sussex_NNP Securities_NNP Regulations_NNPS 2001_CD ._.
BN99_CD 6DA_CD by_IN not_RB later_RB than_IN 12_CD noon_NN on_IN Wednesday_NNP 14_CD July_NNP 2004_CD ._.
v_FW The_DT Register_NNP of_IN Directors_NNS Interests_NNS and_CC copies_NNS of_IN all_DT Contracts_NNS of_IN iv_NN CREST_NN members_NNS including_VBG CREST_NNP Personal_NNP Members_NNP who_WP wish_VBP Service_NNP of_IN the_DT Directors_NNS are_VBP available_JJ for_IN inspection_NN during_IN business_NN hours_NNS to_TO appoint_VB one_CD or_CC more_JJR proxies_NNS by_IN using_VBG the_DT CREST_NNP electronic_JJ proxy_NN at_IN the_DT registered_JJ office_NN of_IN the_DT Company_NN and_CC will_MD be_VB available_JJ for_IN inspection_NN appointment_NN service_NN may_MD do_VB so_RB by_IN having_VBG an_DT appropriate_JJ CREST_NN message_NN at_IN the_DT place_NN of_IN the_DT Meeting_VBG from_IN half_PDT an_DT hour_NN before_IN the_DT time_NN of_IN the_DT transmitted_VBN ._.
Meeting_VBG until_IN the_DT conclusion_NN of_IN the_DT Meeting_VBG ._.
For_IN a_DT proxy_NN appointment_NN made_VBN by_IN means_NNS of_IN CREST_NN to_TO be_VB valid_JJ ,_, the_DT vi_FW Biographical_NNP details_NNS of_IN the_DT Directors_NNS who_WP are_VBP proposed_VBN for_IN re-election_NN appropriate_JJ CREST_NN message_NN a_DT CREST_NNP Proxy_NNP Instruction_NNP must_MD be_VB properly_RB at_IN the_DT Annual_JJ General_NNP Meeting_VBG are_VBP set_VBN out_RP on_IN pages_NNS 22_CD and_CC 23_CD ._.
