William Hill PLC Annual Report and Accounts 2016 90 Directors Report The directors present their Annual Report Overall, taking these factors together, Strategic Report on the affairs of the Group, together with we now expect the Group's operating The Board has prepared a Strategic the financial statements and auditors profit for 2016 to be in the range of 260- Report which provides an overview of the report, for the period ended 27 December 280m, subject to normalised gross win development and performance of the 2016.
The following also form part of margins in the rest of the year.
The Group Groups business for the period ended this report: also confirms that it is in advanced 27 December 2016 and which covers discussions with a partner which would pages 46 and 47, which show the names likely future developments in the Group.
These discussions of all persons who were directors of the The Chairmans overview, CEOs statement, may, or may not, lead to a transaction.
In addition, business overviews, the strategic priorities, Notwithstanding the changes outlined on 14 November 2016 the Company key performance indicators, regulation above, the Board remains committed announced the appointment of John and marketplace report, divisional and to the share buyback programme OReilly and Robin Terrell as directors performance overviews, corporate previously announced.
with effect from 2 January 2017, and also responsibility report, financial review and the appointment of Mark Brooker as a The Groups financial results for the managing our risks sections together director with effect from 3 April 2017: full year ended 27 December 2016 are provide information which the directors available on page 3, and are discussed consider to be of strategic importance to during the period James Henderson throughout the remainder of the Strategic the Group.
served as a director of the Company.
Those disclosures confirm that Mr Henderson resigned from the Board the adjusted operating profit for the year with effect from 21 July 2016: Results and dividends was 261.5m, within the parameters of the reports on corporate governance set The Groups profit on ordinary activities the profit guidance originally issued on out on pages 48 to 89: after taxation for the period was 164.5m 23 March 2016. information relating to financial 2015: 189.9m.
The directors recommend instruments, as provided in the notes to a final dividend of 8.4p per share to be paid Directors and officers the financial statements: on 8 June 2017 to ordinary shareholders liabilityinsurance on the Register of Members on 28 April related party transactions as set out in 2017 which, if approved, together with the Pursuant to Article 155 of the Articles of note 33 to the financial statements: and interim dividend of 4.1p per share paid on Association and subject to the provisions greenhouse gas emissions, set out on 2 December 2016, makes a total of 12.5p of the Companies Act 2006, the directors pages 36 and 39. per share forthe period.
and officers of the Company shall be Details of committee memberships for indemnified out of the assets of the each director are set out on pages 46 Company, against liability in defending Profit Guidance issued and 47.
Details of the directors interests proceedings, whether civil or criminal, in duringyear are set out on page 86 of the Directors which judgement is given in their favour or Remuneration Report.
This statement fulfils the Groups in which they are acquitted or in connection obligations under the Listing Rules with any application in which relief is LR9.2.
18 2. granted to them by the court from liability Management report for negligence, default, breach of duty or On 23 March 2016, the Group announced a For the purposes of compliance with DTR breach of trust in relation to the affairs of trading update for the period to 20 March 4.1.
In addition the Group has 2016, in which the following profit guidance content of the Management Report can purchased and maintains directors and for the year ended 27 December 2016 be found in the Strategic Report and this officers insurance cover against certain was included: Directors Report, including the sections legal liabilities and costs for claims incurred of the Annual Report and Accounts In the year to date, two main factors in respect of any act or omission in the incorporated by reference.
have combined to deliver a weaker than execution of their duties.
Annual Report and Accounts Share capital The broader William Hill Group continues The directors are aware of their to trade well and is overall in line with As at 24 February 2017, the Company had responsibilities in respect of the our internal expectations.
Though Retail an allotted and fully paid-up share capital AnnualReports and Accounts.
recorded a loss on Cheltenham, it has of 887,295,272 ordinary shares of10p The directors consider that the Annual benefited from favourable UK football each with an aggregate nominal value Report and Accounts, taken as a whole, results and the US had a strong Super of88,729,527, which included 29,550,267 is fair, balanced and understandable and Bowl result in February.
Momentum is ordinary shares in treasury.
There were provides the information necessary for continuing to build in Australia following the therefore 857,745,005 ordinary shares in shareholders to assess the Companys changes made in 2015, with further growth issue as at 24 February 2017 excluding position and performance, business in wagering, new accounts and actives.
Further information regarding related processes can be found in the Audit Committee report on pages 60 to 63.
The Statement of Directors Responsibilities appears on page 93.
Strategic William Hill PLC Annual Report and Accounts 2016 report 91 Governance The Company is not aware of any The purchased shares, which were Significant agreements agreements between shareholders acquired for an aggregate consideration change ofcontrol Financial that may result in restrictions on the of 93,660,027 excluding dealing costs, statements There are no significant agreements to transfer of securities and voting rights.
represented 3.45 per cent of the issued which the Company is party which take There are no restrictions on the transfer share capital as at 27 December 2016. effect, alter or terminate in the event of a ofordinaryshares in the Company other None of the acquired shares have been change of control in the Company following than certain restrictions imposed by subsequently disposed of, and it is the a takeover bid.
This will include current intention of the directors that the the Market Abuse Regulation, insider entire acquired shareholding will either trading laws and general requirements continue to be held in treasury, or will be Nevada regulation relating to close periods.
Also included will used to satisfy existing awards under the Shareholders of William Hill are subject to be the requirements of the Companys Group's share and incentive schemes.
regulation by the Nevada State Gaming Share Dealing policies, which follow Control Board and the Nevada Gaming the requirements of the Market Abuse Substantial shareholdings Commission as a result of the Companys Regulation, and whereby directors and ownership of licensed subsidiaries in As at 27 December 2016, the Company had certain employees of the Company require Nevada and the Companys registration been notified, in accordance with either the the necessary approval to deal in the as a publicly traded company operating Disclosure and Transparency Rules of the Companys securities.
Information regarding Financial Conduct Authority and the EU Each ordinary share of the Company Nevada gaming regulatory requirements Market Abuse Directive, of the notifiable carries one vote.
Further information on can be assessed by shareholders at interests in the ordinary share capital of the the rights and obligations attaching to the www.
Company set out in the table below.
Companys ordinary shares, in addition Percentage to those conferred on their holders by Name of holder shareholding Employee policies law, are set out in the Companys Articles Parvus Asset The Group places considerable value on of Association, a copy of which can be Management Europe the involvement of its employees and obtained from the Company Secretary, Limited I 15.00% has continued to keep them informed and is also available on the companys on matters affecting them as employees Capital Group website, www.
Companies, Inc D 10.88% and on the various factors affecting the Changes to the Articles of Association performance of the Group.
This is achieved must be approved by special resolution of HSBC Holdings plc through formal and informal meetings the Company.
Dand I 7.542% and the Group magazine Will2win.
Morgan Stanley D 7.05% The holders of ordinary shares are entitled An employee engagement survey is to receive the Companys report and Oppenheimer Funds, also conducted annually, the results of accounts, to attend and speak at general Inc I 6.81% which are communicated to employees meetings of the Company, to appoint for review and to managers for action.
BlackRock, Inc I 5.52% proxies or corporate representatives and Employee representatives are consulted Artemis Investment to exercise voting rights, and to receive regularly through colleague forums on Management LLP adividend, as and when declared.
a wide range of matters affecting their Dand I 4.98% current and future interests.
UBS Asset Share Repurchase Programme In respect of the UK, the Company Management l 4.72% During the financial year ended operates a HMRC approved UK Sharesave ING Groep N. V. D 4.66% 27 December 2016, the Company Plan which is open to all eligible employees.
commenced a share repurchase Options under the scheme are granted In the period 27 December 2016 to programme under which it acquired with an exercise price up to 20% below 24February 2017, the following changes 29,573,675 of its own ordinary shares the prevailing share price.
The maximum were disclosed to the Company in of 10p each, with an aggregate nominal permissible monthly savings under the accordance with Article 19 of the Market value of 2,957,368, to be held in treasury.
scheme is 500 for savings contracts Abuse Regulation: The programme was executed in commenced in2014.
This follows an Percentage conjunction with the Companys corporate increase in saving limits from 250 Name of holder shareholding brokers Barclays Capital Securities Limited per month, which continues to be the Morgan Stanley D 6.59% and Citigroup Global Markets Limited.
maximum amount which may be saved for Blackrock Inc I 5.92% savings contracts started before 2014.
The Company did not previously hold any Oppenheimer Funds, of its own shares in treasury, and had not Employees in selected other countries in Inc I 4.71% purchased any of its own shares since which the Company operates globally may 2008.
The programme was executed in participate in local share saving schemes, Nature of holding accordance with a strategy outlined to which for operational, tax or legislative D Direct investors with the announcement of the reasons may differ in operation compared I Indirect 2015 full year results in February 2016. to the UK.
William Hill PLC Annual Report and Accounts 2016 92 Directors Report continued William Hill is committed to equal The Board therefore believes that giving Auditor and disclosure of opportunities in the workplace.
approval for the US business to make information toauditor In all aspects of employment including such political contributions is essential Each of the directors in office at the recruitment, promotion, training and for the Company to fully participate in date when this report was approved development and terms and conditions theAmerican political process.
In respect confirms that: of employment, all employees and of the US, political expenditure of applicants for employment are given equal $55,200 was incurred in 2016 2015: so far as the director is aware, there is no opportunities regardless of gender, marital $nil and included contributions to both relevant audit information of which the or family status, race, nationality, ethnic the American Gaming Association and Companys auditor is unaware: and origin, religion, age, disability and sexual individual campaigns exclusively in the director has taken all the steps that orientation.
William Hill endeavours to Nevada State.
they ought to have taken as a director ensure that all employees are made aware in order to make themselves aware of of the provisions of the policy and of their Authority to purchase own any relevant audit information and to responsibility to uphold and promote it.
shares establish that the Companys auditor William Hill will not tolerate harassment, isaware of that information.
An authority for the Company to purchase discrimination or victimisation in the its own shares remains valid until the workplace in any form.
Deloitte LLP have expressed their forthcoming Annual General Meeting willingness to be re-appointed as auditor Applications for employment by disabled AGM, when it is intended that a resolution of the Company.
A resolution to re-appoint persons are always fully and fairly will be put forward to shareholders to Deloitte LLP as the Companys auditor will considered, bearing in mind the aptitude renew such authority.
be proposed at the forthcoming AGM.
and ability of the applicant concerned.
In the event of employees becoming Issue of new ordinary shares Other information required to disabled, every effort is made to ensure that their employment within the Group be incorporated by reference During the financial period ended continues and that appropriate training 27 December 2016, 2,942,077 new ordinary For the purposes of compliance with Listing is arranged.
It continues to be the policy shares of the Company were issued Rule 9.8.
4, the following information is of the Group that the training, career following the exercise of options or vesting hereby incorporated by reference within development and promotion of disabled of awards under various share schemes, this Directors Report: persons should as far as is feasible be and in connection with the acquisition of Listing Rule Requirement Location within the identical to that of other employees.
This comprised the LR Annual Report following issues of new ordinary shares: Directors Political donations 658,630 shares under the employee LR 9.8.
6R 1 Remuneration Sharesave Scheme, at prices between There were no political donations made or Directors interests Report 140p and 312p per share: political expenditure incurred during the period in respect of EU political parties, 1,671,875 shares under the Employee By order of the Board candidates or organisations 2015: nil.
Bonus Matching Scheme: Luke Thomas Company Secretary, William Hill PLC 103,395 shares under the William Hill The Board has, however, given approval 24 February 2017 Online Long Term Incentive Plan, of for certain subsidiaries in respect of Registered Office: which 88,624 shares were released to WilliamHills US business to make Greenside House, 50 Station Road, plan participants: donations within specified limits.
In the US, Wood Green, London N22 7TP it is far more common for corporations to 13,129 shares under the other retention participate in the political process through plans, of which 10,148 shares were a variety of methods, including raising or released to plan participants: donating funds to political candidates.
The approval from the Board will permit No shares were issued under the the US business to decide and agree Performance Share Plan in the year: and on modest political contributions to 495,048 shares as partial consideration candidates for political office in jurisdictions for the acquisition of Grand Parade where the Company is doing or seeks to Limited in August.
Contributions to political candidates do not guarantee that elected Except where indicated above, the exercise officials will support a particular piece of or vesting price was nil.
legislation or otherwise act in their official capacity to benefit the Company, rather, Annual General Meeting they assist in electing individuals whom The AGM will be held at 11.00 a. m. on 9 May the Company believes are likely to support 2017 at Cavendish Conference Centre, its business goals and in establishing 22 Duchess Mews, London W1G 9DT.
productive working relationships with The notice of the AGM and an explanation elected representatives.
of the items of non-routine business are set out in the explanatory circular that accompanies thisAnnual Report.
