GLOSSARY Asset and Liability Committee ALCO The core risk-management body that establishes policies and guidelines with respect to various aspects of risk-management strategy Asian Development Bank ADB of countries in Asia A regional development bank established to facilitate economic development Average Interest Earning Assets Interest-earning assets include: fixed income investment and trading securities, amounts due from credit institutions and loans to customers and finance lease receivables Basic EPS Profit for the period from operations attributable to shareholders of the Group divided by the weighted average number of outstanding ordinary shares over the same period Belarusky Narodny Bank BNB Belarusian banking subsidiary of Bank of Georgia Group BIS Tier I Capital Adequacy ratio Tier I Capital divided by total risk-weighted assets, both calculated in accordance with the requirements of Basel Accord I BIS Total Capital Adequacy ratio Total Capital divided by total risk-weighted assets, both calculated in accordance with the requirements of Basel Accord I Book value per share Total equity attributable to shareholders of the Group divided by ordinary shares outstanding at period end: net ordinary shares outstanding equals total number of ordinary shares outstanding at period end less number of treasury shares at period end Constant currency basis Changes assuming constant exchange rate Cost of Funding Interest expense of the period adjusted for the gains or losses from revaluation of interest rate derivatives divided by monthly average interest-bearing liabilities: interest-bearing liabilities include: amounts due to credit institutions, amounts due to customers, debt securities issued and interest rate derivatives Cost to Income ratio Operating expenses divided by revenue Development Finance Institutions DFIs Development finance institutions established or chartered by more than one country which are subject to international law and whose owners or shareholders are generally national Governments, including, among others, the EBRD, IFC, ADB, etc.
Environmental and Social Policy A policy adopted by the BGH Board of Directors in 2012 EVEX JSC Medical Corporation EVEX holds the Groups healthcare subsidiaries Express banking A wide array of services and products including Express branches, Express cards and Express Pay terminals, aimed at attracting massmarket customers Express branch A small-format branch offering predominantly transactional banking services through ATMs and Express Pay terminals Express card A contactless card with a loyalty programme linked to the customers current account, which can also be used for transport payments Express Metro branches Express branches in metro stations in Tbilisi Express Pay self-service terminal A payment terminal enabling customers to make various payments remotely including utility bill payments and loan repayments at a wide variety of locations Galt & Taggart Former BG Capital Georgian Leasing Company GLC The Banks wholly-owned subsidiary through which it provides finance leasing services Geostat National Statistics Office of Georgia Global Depositary Receipt GDR A certificate issued by a depositary bank, which represents ownership of an underlying number of shares Gross loans In all sections of the Annual Report, except for the consolidated financial statements, gross loans are defined as gross loans to customers and gross finance lease receivables International Finance Corporation IFC A member of the World Bank Group, the largest global development institution focused exclusively on the private sector in developing countries 216 Annual Report 2016 BGEO Group PLC Kreditanstalt fr Wiederaufbau KfW German Government-owned development bank Liberty Consumer A Georgia-focused investment company in which the Group holds a 70% stake Loan Yield Interest income from loans to customers and finance lease receivables divided by average gross loans to customers and finance lease receivables 2 m Real Estate Real Estate business of the Group, formerly known as SB Real Estate Market share s Market share data is based on the information provided by the National Bank of Georgia.
For Bank of Georgia, market share represents market share based on total assets as of 31 December 2014 unless noted otherwise on a stand-alone basis.
For Aldagi, market share is provided based on the gross insurance premium revenue as of 31 December 2014 Net Interest Margin NIM Net interest income of the period adjusted for the gains or losses from revaluation of interest rate derivatives divided by average interestearning assets for the same period Net loans In all sections of the Annual Report, except for the consolidated audited financial statements, net loans are defined as gross loans to customers and finance lease receivables less allowance for impairment New NBG Basel 2 3 Tier I Capital Adequacy ratio Tier I Capital divided by total risk weighted assets, both calculated in accordance with the requirements the National Bank of Georgia instructions New NBG Basel 2 3 Total Capital Adequacy ratio Total capital divided by total risk weighted assets, both calculated in accordance with the requirements of the National Bank of Georgia instructions Non-performing loans NPLs The principal and interest on loans overdue for more than 90 days and any additional potential losses estimated by management Operating cost Equals operating expenses Operating leverage Percentage change in revenue less percentage change in operating expenses Proparco A subsidiary of the Agence Franaise fide Dveloppement AFD Reserve for loan losses to gross loans Allowance for impairment of loans and finance lease receivables divided by gross loans and finance lease receivables Return on Average Total Assets ROAA Profit for the period divided by monthly Average Total Assets for the same period Return on Average Total Equity ROAE Profit for the period attributable to shareholders of the Group divided by monthly average equity attributable to shareholders of the Bank for the same period Weighted average number of ordinary shares Average of daily outstanding number of shares less daily outstanding number of treasury shares Weighted average diluted number of ordinary shares Weighted average number of ordinary shares plus weighted average dilutive number of shares known to the management during the same period Annual Report 2016 BGEO Group PLC 217 Additional Additional Financial Financial Gover Governance finance Strategic r Strategic report eport Strategic r Strategic report eport Strategic r Strategic report eport information information statements statements Performance Performance Strategy Strategy Overview Overview SHAREHOLDER INFORMATION OUR WEBSITE FORWARD-LOOKING STATEMENTS All shareholders and potential shareholders can gain access to the Certain statements in this Annual Report and Accounts contain Annual Report, presentations to investors, key financial information, forward-looking statements, including, but not limited to, statements regulatory news, share and dividend data, AGM documentation and concerning expectations, projections, objectives, targets, goals, other significant information about BGEO at http: www.
strategies, future events, future revenues or performance, capital expenditures, financing needs, plans or intentions relating to acquisitions, OUR REGISTERED ADDRESS competitive strengths and weaknesses, plans or goals relating to BGEO Group PLC financial position and future operations and development.
Although 84 Brook Street BGEO Group PLC believes that the expectations and opinions reflected London W1K 5EH in such forward-looking statements are reasonable, no assurance can United Kingdom be given that such expectations and opinions will prove to have been correct.
By their nature, these forward-looking statements are subject to ANNUAL GENERAL MEETING a number of known and unknown risks, uncertainties and contingencies, The Annual General Meeting of BGEO the AGM will be held at and actual results and events could differ materially from those currently 12 noon London time on 1 June 2017 at Baker & McKenzie LLP, 100 being anticipated as reflected in such statements.
Important factors that New Bridge Street, London EC4V 6JA.
Details of the business to be could cause actual results to differ materially from those expressed or conducted at the AGM are contained in the Notice of AGM which will be implied in forward-looking statements, certain of which are beyond our mailed to shareholders on or about 2 May 2017 and will be available on control, and certain of which include, among other things, those the BGEOs website: http: bgeo.
described in Principal risks and uncertainties included in this Annual Report and Accounts, see pages 36 to 39.
No part of these results SHAREHOLDER ENQUIRIES or report constitutes, or shall be taken to constitute, an invitation or BGEOs share register is maintained by Computershare Investor inducement to invest in BGEO Group PLC or any other entity and Services PLC.
must not be relied upon in any way in connection with any investment decision.
BGEO Group PLC undertakes no obligation to update any Any queries about the administration of holdings of ordinary shares, forward-looking statements, whether as a result of new information, such as change of address or change of ownership, should be directed future events or otherwise, except to the extent legally required.
to the address or telephone number immediately below.
Holders of Nothing in this document should be construed as a profit forecast.
ordinary shares may also check details of their shareholding, subject to passing an identity check, by visiting the Registrars website: www.
co. uk or by calling the Shareholder Helpline on 44 0 370 873 5866.
Computershare Investor Services PLC The Pavilions, Bridgwater Road Bristol BS99 6ZY United Kingdom 44 0 870 873 5866 DIVIDENDS On 20 February 2017, the Directors of BGEO declared their intention to recommend an annual dividend in the amount of GEL 2.6 per share payable in British Pounds Sterling at the prevailing rate, subject to approval by the shareholders at BGEOs AGM.
As a holding company whose principal assets are the shares of its subsidiaries, BGEO relies primarily on dividends and other statutorily and contractually permissible payments from its subsidiaries, principally the Bank, to generate reserves necessary to pay dividends to its shareholders.
If the annual dividend is approved at BGEOs AGM on 1 June 2017, BGEO expects the following dividend timetable: Ex-Dividend Date: 22 June 2017 Record Date: 23 June 2017 Currency Conversion Date: 26 June 2017 Payment Date: 7 July 2017 218 Annual Report 2016 BGEO Group PLC NOTES Annual Report 2016 BGEO Group PLC 219 Additional Additional Financial Financial Gover Governance finance Strategic r Strategic report eport Strategic r Strategic report eport Strategic r Strategic report eport information information statements statements Performance Performance Strategy Strategy Overview Overview NOTES 220 Annual Report 2016 BGEO Group PLC BGEO Group Annual Report 2017
